i	lambda [nm]	el [W/(cm2nm)]	Photonen [cm-2 nm^-1 s-1]
1	300	3.06E-08	4.62E+10
2	310	1.53E-06	2.38E+12
3	320	6.16E-06	9.91E+12
4	330	1.41E-05	2.35E+13
5	340	1.51E-05	2.57E+13
6	350	1.58E-05	2.79E+13
7	360	1.79E-05	3.25E+13
8	370	2.27E-05	4.21E+13
9	380	2.10E-05	4.02E+13
10	390	2.39E-05	4.69E+13
11	400	3.34E-05	6.72E+13
12	410	3.15E-05	6.48E+13
13	420	3.37E-05	7.12E+13
14	430	2.62E-05	5.67E+13
15	440	4.05E-05	8.96E+13
16	450	4.68E-05	1.06E+14
17	460	4.59E-05	1.06E+14
18	470	4.52E-05	1.07E+14
19	480	4.85E-05	1.17E+14
20	490	4.87E-05	1.20E+14
21	500	4.64E-05	1.17E+14
22	510	4.64E-05	1.19E+14
23	520	4.57E-05	1.19E+14
24	530	4.63E-05	1.23E+14
25	540	4.45E-05	1.21E+14
26	550	4.62E-05	1.28E+14
27	560	4.42E-05	1.25E+14
28	570	4.44E-05	1.27E+14
29	580	4.51E-05	1.31E+14
30	590	4.11E-05	1.22E+14
31	600	4.43E-05	1.34E+14
32	610	4.41E-05	1.35E+14
33	620	4.42E-05	1.38E+14
34	630	4.18E-05	1.32E+14
35	640	4.30E-05	1.38E+14
36	650	4.08E-05	1.33E+14
37	660	4.20E-05	1.39E+14
38	670	4.26E-05	1.43E+14
39	680	4.19E-05	1.43E+14
40	690	3.55E-05	1.23E+14
41	700	3.85E-05	1.35E+14
42	710	3.95E-05	1.41E+14
43	720	2.96E-05	1.07E+14
44	730	3.39E-05	1.24E+14
45	740	3.66E-05	1.36E+14
46	750	3.70E-05	1.40E+14
47	760	7.98E-06	3.05E+13
48	770	3.48E-05	1.35E+14
49	780	3.49E-05	1.37E+14
50	790	3.27E-05	1.30E+14
51	800	3.22E-05	1.29E+14
52	810	3.17E-05	1.29E+14
53	820	2.59E-05	1.07E+14
54	830	2.75E-05	1.15E+14
55	840	3.05E-05	1.29E+14
56	850	2.68E-05	1.15E+14
57	860	2.96E-05	1.28E+14
58	870	2.90E-05	1.27E+14
59	880	2.82E-05	1.25E+14
60	890	2.77E-05	1.24E+14
61	900	2.23E-05	1.01E+14
62	910	1.87E-05	8.57E+13
63	920	2.23E-05	1.03E+14
64	930	1.30E-05	6.06E+13
65	940	1.42E-05	6.69E+13
66	950	4.42E-06	2.11E+13
67	960	1.26E-05	6.09E+13
68	970	1.90E-05	9.28E+13
69	980	1.81E-05	8.94E+13
70	990	2.20E-05	1.09E+14
71	1000	2.21E-05	1.11E+14
72	1010	2.16E-05	1.10E+14
73	1020	2.10E-05	1.08E+14
74	1030	2.07E-05	1.07E+14
75	1040	2.02E-05	1.05E+14
76	1050	1.96E-05	1.04E+14
77	1060	1.91E-05	1.02E+14
78	1070	1.81E-05	9.76E+13
79	1080	1.79E-05	9.73E+13
80	1090	1.67E-05	9.14E+13
81	1100	1.46E-05	8.06E+13
82	1110	1.44E-05	8.02E+13
83	1120	4.26E-06	2.40E+13
84	1130	2.12E-05	1.20E+14
85	1140	7.68E-06	4.40E+13
86	1150	3.65E-06	2.11E+13
87	1160	8.59E-06	5.01E+13
88	1170	1.38E-05	8.10E+13
89	1180	1.32E-05	7.84E+13
90	1190	1.39E-05	8.30E+13
91	1200	1.34E-05	8.11E+13
