i	lambda [nm]	el [W/(cm2nm)]	Photonen [cm-2 nm^-1 s-1]
1	280	4.7309E-27	6.65989E-09
2	285	8.0142E-19	1.148339367
3	290	6.0168E-13	877260.9351
4	295	1.229E-09	1822800402
5	300	1.0205E-07	1.53922E+11
6	305	1.6463E-06	2.52449E+12
7	310	5.0939E-06	7.93921E+12
8	315	0.000013625	2.15781E+13
9	320	0.000020527	3.30248E+13
10	325	0.000027894	4.55784E+13
11	330	0.000047139	7.82095E+13
12	335	0.000046388	7.81296E+13
13	340	0.00005018	8.57778E+13
14	345	0.000045898	7.96119E+13
15	350	0.000052798	9.29075E+13
16	355	0.00006114	1.09124E+14
17	360	0.000059817	1.08266E+14
18	365	0.000062359	1.14435E+14
19	370	0.000075507	1.4046E+14
20	375	0.00005893	1.11105E+14
21	380	0.000070077	1.33883E+14
22	385	0.000067355	1.30375E+14
23	390	0.000079699	1.56273E+14
24	395	0.000080772	1.60407E+14
25	400	0.00011141	2.24052E+14
26	410	0.00010485	2.16131E+14
27	420	0.00011232	2.37176E+14
28	430	0.000087462	1.89083E+14
29	440	0.00013499	2.9862E+14
30	450	0.00015595	3.52828E+14
31	460	0.00015291	3.53638E+14
32	470	0.00015077	3.56269E+14
33	480	0.00016181	3.90492E+14
34	490	0.00016224	3.99686E+14
35	500	0.00015451	3.88411E+14
36	510	0.00015481	3.96949E+14
37	520	0.00015236	3.98327E+14
38	530	0.00015446	4.11583E+14
39	540	0.00014825	4.02489E+14
40	550	0.00015399	4.25814E+14
41	560	0.0001474	4.15003E+14
42	570	0.00014816	4.24591E+14
43	580	0.0001502	4.37989E+14
44	590	0.00013709	4.06652E+14
45	600	0.00014753	4.45038E+14
46	610	0.00014686	4.504E+14
47	620	0.00014739	4.59436E+14
48	630	0.00013924	4.41032E+14
49	640	0.0001434	4.61418E+14
50	650	0.00013594	4.44248E+14
51	660	0.00013992	4.6429E+14
52	670	0.00014196	4.78196E+14
53	680	0.00013969	4.77573E+14
54	690	0.00011821	4.1008E+14
55	700	0.00012823	4.51287E+14
56	710	0.00013175	4.70299E+14
57	720	0.00009855	3.56742E+14
58	730	0.00011285	4.1418E+14
59	740	0.00012195	4.5371E+14
60	750	0.00012341	4.65347E+14
61	760	0.000026604	1.01654E+14
62	770	0.00011608	4.4938E+14
63	780	0.00011636	4.56314E+14
64	790	0.0001091	4.33328E+14
65	800	0.00010725	4.31373E+14
66	810	0.00010559	4.30005E+14
67	820	0.000086188	3.55325E+14
68	830	0.000091601	3.82247E+14
69	840	0.00010157	4.28953E+14
70	850	0.000089372	3.81932E+14
71	860	0.000098816	4.27259E+14
72	870	0.000096755	4.23212E+14
73	880	0.000093957	4.15697E+14
74	890	0.000092393	4.13423E+14
75	900	0.00007426	3.36018E+14
76	910	0.000062467	2.85797E+14
77	920	0.000074414	3.44197E+14
78	930	0.00004321	2.02038E+14
79	940	0.000047181	2.22977E+14
80	950	0.000014726	7.03353E+13
81	960	0.000042066	2.03033E+14
82	970	0.000063461	3.09488E+14
83	980	0.000060468	2.97932E+14
84	990	0.000073227	3.64478E+14
85	1000	0.000073532	3.69693E+14
86	1010	0.000071914	3.65174E+14
87	1020	0.000069896	3.58441E+14
88	1030	0.000069055	3.576E+14
89	1040	0.00006717	3.51216E+14
90	1050	0.000065463	3.45581E+14
91	1060	0.000063585	3.38864E+14
92	1070	0.000060469	3.25298E+14
93	1080	0.000059722	3.24282E+14
94	1090	0.000055573	3.04548E+14
95	1100	0.000048577	2.68651E+14
96	1110	0.000047899	2.6731E+14
97	1120	0.000014189	7.98978E+13
98	1130	7.0574E-06	4.00948E+13
99	1140	0.000025599	1.46721E+14
100	1150	0.000012164	7.03298E+13
101	1160	0.000028648	1.67077E+14
102	1170	0.000045873	2.69841E+14
103	1180	0.000044069	2.61445E+14
104	1190	0.000046239	2.76644E+14
105	1200	0.000044825	2.70437E+14
106	1210	0.000045336	2.758E+14
107	1220	0.000045805	2.80956E+14
108	1230	0.000046003	2.84483E+14
109	1240	0.000046077	2.87257E+14
110	1250	0.000045705	2.87236E+14
111	1260	0.00004311	2.73095E+14
112	1270	0.000038744	2.47385E+14
113	1280	0.000042204	2.71599E+14
114	1290	0.000041285	2.67761E+14
115	1300	0.000035312	2.30797E+14
116	1310	0.000030114	1.98338E+14
117	1320	0.000025872	1.717E+14
118	1330	0.000022923	1.53281E+14
119	1340	0.000016831	1.13391E+14
120	1350	1.6025E-06	1.08767E+13
121	1360	2.1404E-10	1463521368
122	1370	2.92E-11	201126194.1
123	1380	8.1587E-09	56606365008
124	1390	4.9328E-08	3.44726E+11
125	1400	3.2466E-13	2285188.537
126	1410	4.6653E-08	3.30723E+11
127	1420	8.2718E-07	5.90546E+12
128	1430	6.1601E-06	4.42883E+13
129	1440	3.9601E-06	2.86704E+13
130	1450	2.7412E-06	1.99836E+13
131	1460	8.5421E-06	6.27022E+13
132	1470	4.9678E-06	3.67153E+13
133	1480	6.0637E-06	4.51195E+13
134	1490	0.000017478	1.30931E+14
135	1500	0.000025061	1.88997E+14
136	1510	0.000027052	2.05372E+14
137	1520	0.00002645	2.02132E+14
138	1530	0.000025522	1.96323E+14
139	1540	0.000026491	2.05109E+14
140	1550	0.00002699	2.10329E+14
141	1560	0.000026568	2.08376E+14
142	1570	0.000024175	1.90823E+14
143	1580	0.000024464	1.94334E+14
144	1590	0.000024179	1.93286E+14
145	1600	0.00002381	1.91533E+14
146	1610	0.00002176	1.76137E+14
147	1620	0.000023449	1.90987E+14
148	1630	0.000023651	1.93822E+14
149	1640	0.000021511	1.77366E+14
150	1650	0.000022526	1.86867E+14
151	1660	0.000022332	1.86381E+14
152	1670	0.000022168	1.86126E+14
153	1680	0.000020558	1.73642E+14
154	1690	0.000020523	1.74378E+14
155	1700	0.000019975	1.70726E+14
156	1745	0.000015481	1.35819E+14
157	1795	4.6931E-06	4.23535E+13
158	1845	6.2658E-10	5812167421
159	1895	1.2947E-08	1.23351E+11
160	1945	1.0863E-06	1.06227E+13
161	1995	0.000008119	8.14349E+13
162	2045	9.1074E-06	9.36382E+13
163	2095	8.9747E-06	9.45299E+13
164	2145	8.9486E-06	9.65045E+13
165	2195	7.8992E-06	8.71732E+13
166	2245	7.0838E-06	7.99554E+13
167	2295	6.1265E-06	7.06904E+13
168	2345	0.00000514	6.05998E+13
169	2395	4.0594E-06	4.88802E+13
170	2445	2.0798E-06	2.55662E+13
171	2495	2.8772E-07	3.60916E+12
172	2545	5.3758E-15	68785.37456
173	2595	2.2838E-37	2.97962E-18
174	2645	8.9988E-23	0.001196673
175	2695	7.1284E-37	9.65864E-18
176	2745	1.3146E-27	1.81427E-08
177	2795	3.6205E-20	0.508763072
178	2845	4.0575E-09	58037141780
179	2895	2.6643E-07	3.8779E+12
180	2945	1.4489E-07	2.1453E+12
181	2995	4.2755E-07	6.43797E+12
182	3045	4.209E-07	6.44364E+12
183	3095	6.551E-08	1.01937E+12
184	3145	3.2517E-07	5.14158E+12
185	3195	2.6927E-07	4.32538E+12
186	3245	7.3409E-08	1.19765E+12
187	3295	1.2234E-07	2.0267E+12
188	3345	3.5408E-07	5.95474E+12
189	3395	9.5465E-07	1.62948E+13
190	3445	1.1318E-06	1.96031E+13
191	3495	1.2265E-06	2.15516E+13
192	3545	9.5432E-07	1.70089E+13
193	3595	0.000000967	1.7478E+13
194	3645	1.0599E-06	1.94235E+13
195	3695	1.0132E-06	1.88224E+13
196	3745	1.0331E-06	1.94518E+13
197	3795	8.8692E-07	1.69224E+13
198	3845	8.7801E-07	1.69731E+13
199	3895	7.476E-07	1.464E+13
200	3945	7.5412E-07	1.49573E+13
201	3995	0.000000721	1.44816E+13
