i	lambda [nm]	el [W/(cm2nm)]	Photonen [cm-2 nm^-1 s-1]
1	440	7.70E-07	1.71E+12
2	450	1.56713E-06	3.55E+12
3	460	3.31514E-06	7.68E+12
4	470	4.90352E-06	1.16E+13
5	480	8.0766E-06	1.95E+13
6	490	1.33639E-05	3.30E+13
7	500	1.6594E-05	4.18E+13
8	510	2.10664E-05	5.41E+13
9	520	2.47328E-05	6.47E+13
10	530	2.98875E-05	7.97E+13
11	540	3.33333E-05	9.06E+13
12	550	4.11442E-05	1.14E+14
13	560	4.61442E-05	1.30E+14
14	570	4.93179E-05	1.42E+14
15	580	5.26812E-05	1.54E+14
16	590	5.76062E-05	1.71E+14
17	600	6.10756E-05	1.84E+14
18	610	6.40708E-05	1.97E+14
19	620	6.60651E-05	2.06E+14
20	630	6.73464E-05	2.14E+14
21	640	6.88607E-05	2.22E+14
22	650	6.98027E-05	2.28E+14
23	660	7.09697E-05	2.36E+14
24	670	7.11103E-05	2.40E+14
25	680	6.98831E-05	2.39E+14
26	690	6.82954E-05	2.37E+14
27	700	6.59841E-05	2.33E+14
28	710	6.44697E-05	2.30E+14
29	720	6.326E-05	2.29E+14
30	730	5.91624E-05	2.17E+14
31	740	5.7088E-05	2.13E+14
32	750	5.37785E-05	2.03E+14
33	760	5.15232E-05	1.97E+14
34	770	4.91956E-05	1.91E+14
35	780	4.61943E-05	1.81E+14
36	790	4.42448E-05	1.76E+14
37	800	3.96923E-05	1.60E+14
38	810	3.95517E-05	1.61E+14
39	820	3.83962E-05	1.58E+14
40	830	3.52892E-05	1.47E+14
41	840	3.19661E-05	1.35E+14
42	850	2.91487E-05	1.25E+14
43	860	2.59988E-05	1.13E+14
44	870	2.50828E-05	1.10E+14
45	880	2.26494E-05	1.00E+14
46	890	1.97599E-05	8.85E+13
47	900	1.8666E-05	8.46E+13
48	910	1.77692E-05	8.14E+13
49	920	1.53963E-05	7.13E+13
50	930	1.27065E-05	5.95E+13
51	940	1.10239E-05	5.22E+13
52	950	8.54E-06	4.08E+13
53	960	7.00E-06	3.38E+13
54	970	6.56062E-06	3.20E+13
55	980	5.17E-06	2.55E+13
56	990	3.44547E-06	1.72E+13
57	1000	2.36293E-06	1.19E+13
