i	lambda [nm]	el [W/(cm2nm)]	Photonen [cm-2 nm^-1 s-1]
1	404.5	5.79E-08	1.18E+11
2	406.5	0.00E+00	0.00E+00
3	408.5	0.00E+00	0.00E+00
4	410.5	2.77E-09	5.71E+09
5	412.5	7.33E-07	1.52E+12
6	414.5	5.24E-07	1.09E+12
7	416.5	6.02E-08	1.26E+11
8	418.5	9.67E-07	2.03E+12
9	420.5	2.64E-06	5.58E+12
10	422.5	2.33E-06	4.96E+12
11	424.5	3.65E-06	7.79E+12
12	426.5	5.48E-06	1.18E+13
13	428.5	6.52E-06	1.40E+13
14	430.5	8.46E-06	1.83E+13
15	432.5	1.05E-05	2.29E+13
16	434.5	1.29E-05	2.83E+13
17	436.5	1.53E-05	3.36E+13
18	438.5	1.77E-05	3.91E+13
19	440.5	2.01E-05	4.46E+13
20	442.5	2.30E-05	5.11E+13
21	444.5	2.65E-05	5.93E+13
22	446.5	3.01E-05	6.75E+13
23	448.5	3.47E-05	7.83E+13
24	450.5	3.78E-05	8.55E+13
25	452.5	3.92E-05	8.91E+13
26	454.5	3.72E-05	8.51E+13
27	456.5	3.25E-05	7.45E+13
28	458.5	2.87E-05	6.62E+13
29	460.5	2.48E-05	5.74E+13
30	462.5	2.15E-05	4.99E+13
31	464.5	1.88E-05	4.38E+13
32	466.5	1.79E-05	4.21E+13
33	468.5	1.67E-05	3.94E+13
34	470.5	1.58E-05	3.75E+13
35	472.5	1.44E-05	3.43E+13
36	474.5	1.38E-05	3.29E+13
37	476.5	1.23E-05	2.96E+13
38	478.5	1.23E-05	2.96E+13
39	480.5	1.27E-05	3.07E+13
40	482.5	1.31E-05	3.18E+13
41	484.5	1.39E-05	3.39E+13
42	486.5	1.48E-05	3.62E+13
43	488.5	1.52E-05	3.73E+13
44	490.5	1.62E-05	4.01E+13
45	492.5	1.74E-05	4.32E+13
46	494.5	1.85E-05	4.60E+13
47	496.5	2.00E-05	4.98E+13
48	498.5	2.14E-05	5.37E+13
49	500.5	2.27E-05	5.72E+13
50	502.5	2.42E-05	6.11E+13
51	504.5	2.51E-05	6.37E+13
52	506.5	2.67E-05	6.79E+13
53	508.5	2.83E-05	7.22E+13
54	510.5	2.95E-05	7.57E+13
55	512.5	3.13E-05	8.05E+13
56	514.5	3.30E-05	8.54E+13
57	516.5	3.46E-05	8.98E+13
58	518.5	3.54E-05	9.23E+13
59	520.5	3.76E-05	9.84E+13
60	522.5	3.87E-05	1.02E+14
61	524.5	4.00E-05	1.06E+14
62	526.5	4.19E-05	1.11E+14
63	528.5	4.37E-05	1.16E+14
64	530.5	4.59E-05	1.22E+14
65	532.5	4.75E-05	1.27E+14
66	534.5	4.87E-05	1.31E+14
67	536.5	4.98E-05	1.34E+14
68	538.5	5.29E-05	1.43E+14
69	540.5	5.48E-05	1.49E+14
70	542.5	5.65E-05	1.54E+14
71	544.5	5.84E-05	1.60E+14
72	546.5	6.09E-05	1.67E+14
73	548.5	6.24E-05	1.72E+14
74	550.5	6.48E-05	1.79E+14
75	552.5	6.68E-05	1.86E+14
76	554.5	6.89E-05	1.92E+14
77	556.5	7.15E-05	2.00E+14
78	558.5	7.30E-05	2.05E+14
79	560.5	7.61E-05	2.15E+14
80	562.5	7.80E-05	2.21E+14
81	564.5	7.98E-05	2.26E+14
82	566.5	8.19E-05	2.33E+14
83	568.5	8.39E-05	2.40E+14
84	570.5	8.66E-05	2.48E+14
85	572.5	8.89E-05	2.56E+14
86	574.5	9.09E-05	2.63E+14
87	576.5	9.28E-05	2.69E+14
88	578.5	9.67E-05	2.81E+14
89	580.5	9.77E-05	2.85E+14
90	582.5	9.94E-05	2.91E+14
91	584.5	1.01E-04	2.98E+14
92	586.5	1.03E-04	3.04E+14
93	588.5	1.05E-04	3.11E+14
94	590.5	1.07E-04	3.16E+14
95	592.5	1.07E-04	3.20E+14
96	594.5	1.08E-04	3.24E+14
97	596.5	1.09E-04	3.28E+14
98	598.5	1.11E-04	3.34E+14
99	600.5	1.12E-04	3.39E+14
100	602.5	1.11E-04	3.38E+14
101	604.5	1.12E-04	3.40E+14
102	606.5	1.12E-04	3.42E+14
103	608.5	1.12E-04	3.43E+14
104	610.5	1.11E-04	3.40E+14
105	612.5	1.10E-04	3.40E+14
106	614.5	1.09E-04	3.38E+14
107	616.5	1.08E-04	3.36E+14
108	618.5	1.08E-04	3.37E+14
109	620.5	1.07E-04	3.33E+14
110	622.5	1.05E-04	3.28E+14
111	624.5	1.04E-04	3.25E+14
112	626.5	1.01E-04	3.20E+14
113	628.5	9.93E-05	3.14E+14
114	630.5	9.69E-05	3.07E+14
115	632.5	9.48E-05	3.01E+14
116	634.5	9.30E-05	2.97E+14
117	636.5	9.06E-05	2.90E+14
118	638.5	8.75E-05	2.81E+14
119	640.5	8.57E-05	2.76E+14
120	642.5	8.39E-05	2.71E+14
121	644.5	8.00E-05	2.59E+14
122	646.5	7.73E-05	2.51E+14
123	648.5	7.52E-05	2.45E+14
124	650.5	7.27E-05	2.38E+14
125	652.5	6.93E-05	2.27E+14
126	654.5	6.72E-05	2.21E+14
127	656.5	6.46E-05	2.13E+14
128	658.5	6.19E-05	2.05E+14
129	660.5	5.92E-05	1.96E+14
130	662.5	5.70E-05	1.90E+14
131	664.5	5.38E-05	1.80E+14
132	666.5	5.17E-05	1.73E+14
133	668.5	4.88E-05	1.64E+14
134	670.5	4.68E-05	1.58E+14
135	672.5	4.46E-05	1.51E+14
136	674.5	4.25E-05	1.44E+14
137	676.5	4.08E-05	1.39E+14
138	678.5	3.87E-05	1.32E+14
139	680.5	3.71E-05	1.27E+14
140	682.5	3.47E-05	1.19E+14
141	684.5	3.33E-05	1.15E+14
142	686.5	3.16E-05	1.09E+14
143	688.5	2.96E-05	1.03E+14
144	690.5	2.84E-05	9.87E+13
145	692.5	2.70E-05	9.41E+13
146	694.5	2.53E-05	8.84E+13
147	696.5	2.33E-05	8.15E+13
148	698.5	2.33E-05	8.18E+13
149	700.5	2.13E-05	7.50E+13
150	702.5	1.99E-05	7.04E+13
151	704.5	1.92E-05	6.81E+13
152	706.5	1.78E-05	6.32E+13
153	708.5	1.75E-05	6.24E+13
154	710.5	1.58E-05	5.64E+13
155	712.5	1.59E-05	5.69E+13
156	714.5	1.39E-05	5.00E+13
157	716.5	1.29E-05	4.64E+13
158	718.5	1.20E-05	4.32E+13
159	720.5	1.19E-05	4.32E+13
160	722.5	1.10E-05	3.99E+13
161	724.5	1.07E-05	3.88E+13
162	726.5	9.35E-06	3.41E+13
163	728.5	9.67E-06	3.54E+13
164	730.5	8.13E-06	2.99E+13
165	732.5	8.06E-06	2.97E+13
166	734.5	7.34E-06	2.71E+13
167	736.5	6.22E-06	2.30E+13
168	738.5	6.23E-06	2.31E+13
169	740.5	6.86E-06	2.56E+13
170	742.5	5.61E-06	2.10E+13
171	744.5	4.43E-06	1.66E+13
172	746.5	4.06E-06	1.52E+13
173	748.5	4.51E-06	1.70E+13
174	750.5	6.35E-06	2.39E+13
175	752.5	2.84E-06	1.08E+13
176	754.5	3.23E-06	1.23E+13
177	756.5	2.76E-06	1.05E+13
178	758.5	3.04E-06	1.16E+13
179	760.5	2.16E-06	8.26E+12
180	762.5	2.15E-06	8.23E+12
181	764.5	1.04E-06	4.02E+12
182	766.5	1.39E-06	5.37E+12
183	768.5	1.91E-06	7.39E+12
184	770.5	8.33E-07	3.23E+12
185	772.5	0.00E+00	0.00E+00
186	774.5	4.62E-07	1.80E+12
187	776.5	4.69E-07	1.83E+12
188	778.5	2.32E-06	9.08E+12
189	780.5	0.00E+00	0.00E+00
190	782.5	3.47E-07	1.36E+12
191	784.5	0.00E+00	0.00E+00
192	786.5	0.00E+00	0.00E+00
193	788.5	1.96E-06	7.75E+12
194	790.5	1.82E-07	7.22E+11
195	792.5	0.00E+00	0.00E+00
196	794.5	0.00E+00	0.00E+00
197	796.5	0.00E+00	0.00E+00
198	798.5	1.45E-07	5.80E+11
199	800.5	0.00E+00	0.00E+00
200	802.5	0.00E+00	0.00E+00
201	804.5	0.00E+00	0.00E+00
202	806.5	1.25E-06	5.07E+12
203	808.5	0.00E+00	0.00E+00
204	810.5	0.00E+00	0.00E+00
205	812.5	0.00E+00	0.00E+00
206	814.5	0.00E+00	0.00E+00
207	816.5	0.00E+00	0.00E+00
208	818.5	0.00E+00	0.00E+00
209	820.5	0.00E+00	0.00E+00
210	822.5	0.00E+00	0.00E+00
211	824.5	0.00E+00	0.00E+00
212	826.5	0.00E+00	0.00E+00
213	828.5	0.00E+00	0.00E+00
214	830.5	0.00E+00	0.00E+00
215	832.5	0.00E+00	0.00E+00
216	834.5	0.00E+00	0.00E+00
