i	lambda [nm]	el [W/(cm2nm)]	Photonen [cm-2 nm^-1 s-1]
1	404.5	7.31E-08	1.49E+11
2	406.5	0.00E+00	0.00E+00
3	408.5	0.00E+00	0.00E+00
4	410.5	3.49E-09	7.21E+09
5	412.5	9.27E-07	1.92E+12
6	414.5	6.62E-07	1.38E+12
7	416.5	7.60E-08	1.59E+11
8	418.5	1.22E-06	2.57E+12
9	420.5	3.34E-06	7.05E+12
10	422.5	2.95E-06	6.26E+12
11	424.5	4.61E-06	9.85E+12
12	426.5	6.93E-06	1.48E+13
13	428.5	8.24E-06	1.77E+13
14	430.5	1.07E-05	2.31E+13
15	432.5	1.33E-05	2.89E+13
16	434.5	1.64E-05	3.57E+13
17	436.5	1.93E-05	4.25E+13
18	438.5	2.24E-05	4.94E+13
19	440.5	2.54E-05	5.64E+13
20	442.5	2.90E-05	6.46E+13
21	444.5	3.35E-05	7.49E+13
22	446.5	3.80E-05	8.53E+13
23	448.5	4.39E-05	9.89E+13
24	450.5	4.77E-05	1.08E+14
25	452.5	4.95E-05	1.13E+14
26	454.5	4.70E-05	1.07E+14
27	456.5	4.10E-05	9.41E+13
28	458.5	3.63E-05	8.36E+13
29	460.5	3.13E-05	7.26E+13
30	462.5	2.71E-05	6.31E+13
31	464.5	2.37E-05	5.54E+13
32	466.5	2.27E-05	5.31E+13
33	468.5	2.11E-05	4.97E+13
34	470.5	2.00E-05	4.74E+13
35	472.5	1.82E-05	4.33E+13
36	474.5	1.74E-05	4.16E+13
37	476.5	1.56E-05	3.74E+13
38	478.5	1.55E-05	3.73E+13
39	480.5	1.60E-05	3.87E+13
40	482.5	1.66E-05	4.02E+13
41	484.5	1.76E-05	4.28E+13
42	486.5	1.87E-05	4.58E+13
43	488.5	1.92E-05	4.71E+13
44	490.5	2.05E-05	5.06E+13
45	492.5	2.20E-05	5.46E+13
46	494.5	2.34E-05	5.82E+13
47	496.5	2.52E-05	6.30E+13
48	498.5	2.71E-05	6.79E+13
49	500.5	2.87E-05	7.23E+13
50	502.5	3.06E-05	7.72E+13
51	504.5	3.17E-05	8.05E+13
52	506.5	3.37E-05	8.58E+13
53	508.5	3.57E-05	9.13E+13
54	510.5	3.73E-05	9.56E+13
55	512.5	3.95E-05	1.02E+14
56	514.5	4.17E-05	1.08E+14
57	516.5	4.37E-05	1.13E+14
58	518.5	4.48E-05	1.17E+14
59	520.5	4.75E-05	1.24E+14
60	522.5	4.90E-05	1.29E+14
61	524.5	5.06E-05	1.33E+14
62	526.5	5.30E-05	1.40E+14
63	528.5	5.53E-05	1.47E+14
64	530.5	5.80E-05	1.55E+14
65	532.5	6.00E-05	1.61E+14
66	534.5	6.16E-05	1.65E+14
67	536.5	6.30E-05	1.70E+14
68	538.5	6.68E-05	1.81E+14
69	540.5	6.92E-05	1.88E+14
70	542.5	7.14E-05	1.95E+14
71	544.5	7.38E-05	2.02E+14
72	546.5	7.70E-05	2.12E+14
73	548.5	7.89E-05	2.18E+14
74	550.5	8.18E-05	2.26E+14
75	552.5	8.44E-05	2.34E+14
76	554.5	8.71E-05	2.43E+14
77	556.5	9.03E-05	2.53E+14
78	558.5	9.23E-05	2.59E+14
79	560.5	9.62E-05	2.71E+14
80	562.5	9.86E-05	2.79E+14
81	564.5	1.01E-04	2.86E+14
82	566.5	1.04E-04	2.95E+14
83	568.5	1.06E-04	3.03E+14
84	570.5	1.09E-04	3.14E+14
85	572.5	1.12E-04	3.23E+14
86	574.5	1.15E-04	3.32E+14
87	576.5	1.17E-04	3.40E+14
88	578.5	1.22E-04	3.55E+14
89	580.5	1.23E-04	3.60E+14
90	582.5	1.26E-04	3.68E+14
91	584.5	1.28E-04	3.76E+14
92	586.5	1.30E-04	3.84E+14
93	588.5	1.33E-04	3.93E+14
94	590.5	1.35E-04	4.00E+14
95	592.5	1.36E-04	4.04E+14
96	594.5	1.37E-04	4.09E+14
97	596.5	1.38E-04	4.15E+14
98	598.5	1.40E-04	4.22E+14
99	600.5	1.42E-04	4.28E+14
100	602.5	1.41E-04	4.27E+14
101	604.5	1.41E-04	4.30E+14
102	606.5	1.42E-04	4.32E+14
103	608.5	1.41E-04	4.33E+14
104	610.5	1.40E-04	4.30E+14
105	612.5	1.39E-04	4.29E+14
106	614.5	1.38E-04	4.27E+14
107	616.5	1.37E-04	4.24E+14
108	618.5	1.37E-04	4.26E+14
109	620.5	1.35E-04	4.21E+14
110	622.5	1.32E-04	4.14E+14
111	624.5	1.31E-04	4.11E+14
112	626.5	1.28E-04	4.04E+14
113	628.5	1.25E-04	3.96E+14
114	630.5	1.22E-04	3.88E+14
115	632.5	1.20E-04	3.81E+14
116	634.5	1.18E-04	3.75E+14
117	636.5	1.14E-04	3.66E+14
118	638.5	1.11E-04	3.55E+14
119	640.5	1.08E-04	3.49E+14
120	642.5	1.06E-04	3.42E+14
121	644.5	1.01E-04	3.28E+14
122	646.5	9.76E-05	3.17E+14
123	648.5	9.50E-05	3.10E+14
124	650.5	9.18E-05	3.00E+14
125	652.5	8.76E-05	2.87E+14
126	654.5	8.49E-05	2.79E+14
127	656.5	8.16E-05	2.69E+14
128	658.5	7.82E-05	2.59E+14
129	660.5	7.47E-05	2.48E+14
130	662.5	7.20E-05	2.40E+14
131	664.5	6.79E-05	2.27E+14
132	666.5	6.53E-05	2.19E+14
133	668.5	6.17E-05	2.07E+14
134	670.5	5.92E-05	1.99E+14
135	672.5	5.63E-05	1.90E+14
136	674.5	5.37E-05	1.82E+14
137	676.5	5.16E-05	1.75E+14
138	678.5	4.89E-05	1.67E+14
139	680.5	4.69E-05	1.60E+14
140	682.5	4.38E-05	1.50E+14
141	684.5	4.21E-05	1.45E+14
142	686.5	4.00E-05	1.38E+14
143	688.5	3.75E-05	1.30E+14
144	690.5	3.59E-05	1.25E+14
145	692.5	3.42E-05	1.19E+14
146	694.5	3.20E-05	1.12E+14
147	696.5	2.94E-05	1.03E+14
148	698.5	2.94E-05	1.03E+14
149	700.5	2.69E-05	9.47E+13
150	702.5	2.52E-05	8.90E+13
151	704.5	2.43E-05	8.61E+13
152	706.5	2.25E-05	7.99E+13
153	708.5	2.21E-05	7.89E+13
154	710.5	2.00E-05	7.13E+13
155	712.5	2.01E-05	7.19E+13
156	714.5	1.76E-05	6.32E+13
157	716.5	1.63E-05	5.86E+13
158	718.5	1.51E-05	5.46E+13
159	720.5	1.51E-05	5.46E+13
160	722.5	1.39E-05	5.04E+13
161	724.5	1.35E-05	4.90E+13
162	726.5	1.18E-05	4.32E+13
163	728.5	1.22E-05	4.47E+13
164	730.5	1.03E-05	3.77E+13
165	732.5	1.02E-05	3.75E+13
166	734.5	9.27E-06	3.42E+13
167	736.5	7.86E-06	2.91E+13
168	738.5	7.87E-06	2.92E+13
169	740.5	8.67E-06	3.23E+13
170	742.5	7.09E-06	2.65E+13
171	744.5	5.60E-06	2.10E+13
172	746.5	5.13E-06	1.92E+13
173	748.5	5.70E-06	2.15E+13
174	750.5	8.02E-06	3.03E+13
175	752.5	3.59E-06	1.36E+13
176	754.5	4.08E-06	1.55E+13
177	756.5	3.49E-06	1.33E+13
178	758.5	3.85E-06	1.47E+13
179	760.5	2.73E-06	1.04E+13
180	762.5	2.71E-06	1.04E+13
181	764.5	1.32E-06	5.07E+12
182	766.5	1.76E-06	6.79E+12
183	768.5	2.42E-06	9.34E+12
184	770.5	1.05E-06	4.08E+12
185	772.5	0.00E+00	0.00E+00
186	774.5	5.84E-07	2.27E+12
187	776.5	5.92E-07	2.31E+12
188	778.5	2.93E-06	1.15E+13
189	780.5	0.00E+00	0.00E+00
190	782.5	4.38E-07	1.72E+12
191	784.5	0.00E+00	0.00E+00
192	786.5	0.00E+00	0.00E+00
193	788.5	2.47E-06	9.80E+12
194	790.5	2.30E-07	9.13E+11
195	792.5	0.00E+00	0.00E+00
196	794.5	0.00E+00	0.00E+00
197	796.5	0.00E+00	0.00E+00
198	798.5	1.83E-07	7.33E+11
199	800.5	0.00E+00	0.00E+00
200	802.5	0.00E+00	0.00E+00
201	804.5	0.00E+00	0.00E+00
202	806.5	1.58E-06	6.40E+12
203	808.5	0.00E+00	0.00E+00
204	810.5	0.00E+00	0.00E+00
205	812.5	0.00E+00	0.00E+00
206	814.5	0.00E+00	0.00E+00
207	816.5	0.00E+00	0.00E+00
208	818.5	0.00E+00	0.00E+00
209	820.5	0.00E+00	0.00E+00
210	822.5	0.00E+00	0.00E+00
211	824.5	0.00E+00	0.00E+00
212	826.5	0.00E+00	0.00E+00
213	828.5	0.00E+00	0.00E+00
214	830.5	0.00E+00	0.00E+00
215	832.5	0.00E+00	0.00E+00
216	834.5	0.00E+00	0.00E+00
