i	lambda [nm]	el [W/(cm2nm)]	Photonen [cm-2 nm^-1 s-1]
1	305	2.90246E-06	4.45E+12
2	310	2.90448E-06	4.53E+12
3	320	2.90583E-06	4.68E+12
4	330	2.91528E-06	4.84E+12
5	340	2.9173E-06	4.99E+12
6	350	2.92E-06	5.14E+12
7	360	2.92E-06	5.29E+12
8	370	2.92E-06	5.44E+12
9	380	2.92E-06	5.58E+12
10	390	2.92E-06	5.73E+12
11	400	2.92E-06	5.88E+12
12	410	3.79912E-06	7.84E+12
13	420	8.1394E-06	1.72E+13
14	430	1.98554E-05	4.30E+13
15	440	6.02039E-05	1.33E+14
16	450	0.000112266	2.54E+14
17	460	0.000124307	2.88E+14
18	470	0.000116427	2.75E+14
19	480	6.5301E-05	1.58E+14
20	490	4.37313E-05	1.08E+14
21	500	3.85398E-05	9.70E+13
22	510	3.76625E-05	9.67E+13
23	520	5.35008E-05	1.40E+14
24	530	6.36984E-05	1.70E+14
25	540	6.59429E-05	1.79E+14
26	550	6.50916E-05	1.80E+14
27	560	6.20797E-05	1.75E+14
28	570	5.90983E-05	1.70E+14
29	580	5.71137E-05	1.67E+14
30	590	5.31458E-05	1.58E+14
31	600	5.11612E-05	1.55E+14
32	610	4.28964E-05	1.32E+14
33	620	3.83041E-05	1.20E+14
34	630	3.3357E-05	1.06E+14
35	640	2.81537E-05	9.07E+13
36	650	2.42513E-05	7.94E+13
37	660	2.03499E-05	6.76E+13
38	670	1.47132E-05	4.96E+13
39	680	1.24377E-05	4.26E+13
40	690	9.07857E-06	3.15E+13
41	700	7.34597E-06	2.59E+13
42	710	6.55264E-06	2.34E+13
43	720	5.97623E-06	2.17E+13
44	730	4.17867E-06	1.54E+13
45	740	3.3891E-06	1.26E+13
46	750	3.39218E-06	1.28E+13
47	760	3.39403E-06	1.30E+13
48	770	3.39403E-06	1.32E+13
49	780	3.39403E-06	1.33E+13
50	790	3.39E-06	1.35E+13
51	800	3.39E-06	1.37E+13
